File: Fig S04/csv/FigS4_processed_ChitosanOAc.csv
Wavenumber,Transmission
cm^{-1},a.u.
3964.7,0.99539
3923.8,0.99232
3882.89,0.98925
3841.98,0.98792
3801.07,0.97877
3765.28,0.96465
3734.6,0.9517
3714.15,0.9331
3703.92,0.91211
3693.69,0.89434
3690.28,0.87677
3678.35,0.85708
3680.06,0.84028
3668.125,0.81885
3666.42,0.80148
3673.24,0.79279
3657.9,0.7702
3657.9,0.7563
3657.9,0.74414
3647.67,0.72502
3647.67,0.71113
3647.67,0.69202
3637.44,0.66595
3637.44,0.65205
3637.44,0.63294
3627.22,0.60688
3627.22,0.59298
3627.22,0.57908
3627.22,0.56692
3616.99,0.54433
3616.99,0.53043
3616.99,0.51827
3606.76,0.49568
3606.76,0.48178
3606.76,0.46354
3596.54,0.44008
3596.54,0.42618
3596.54,0.41229
3586.31,0.38796
3586.31,0.37406
3586.31,0.3619
3574.38,0.33699
3577.79,0.3202
3565.86,0.30108
3565.86,0.28805
3555.63,0.26633
3555.63,0.24722
3545.4,0.21942
3533.47,0.19451
3535.18,0.17772
3524.95,0.15686
3514.72,0.13775
3514.72,0.12385
3504.495,0.10994
3509.61,0.096049
3489.15,0.082715
3484.04,0.057377
3473.81,0.042169
3458.47,0.023048
3453.36,0.0091467
3417.57,0
3393.7,0.010261
3376.66,0.029358
3371.55,0.042094
3361.32,0.055984
3351.09,0.084062
3351.09,0.069874
3340.865,0.10056
3318.71,0.11676
3294.84,0.13324
3274.39,0.14915
3243.71,0.16578
3215.07,0.18304
3192.58,0.19933
3172.12,0.21321
3151.67,0.22839
3131.21,0.24266
3100.53,0.25731
3069.85,0.26983
3039.17,0.28448
3000.31,0.29244
2972.7,0.28154
2977.811,0.27286
2962.47,0.26039
2962.47,0.24708
2947.13,0.23172
2942.02,0.21724
2919.86,0.19666
2921.56,0.17814
2936.9,0.1738
2916.45,0.15989
2901.11,0.21895
2883.21,0.24369
2895.996,0.23168
2895.996,0.20678
2870.43,0.25975
2844.86,0.24187
2839.75,0.30055
2839.75,0.28665
2838.04,0.26928
2831.23,0.32371
2814.181,0.34396
2824.41,0.31617
2809.07,0.35699
2783.5,0.37058
2763.05,0.38431
2732.366,0.40239
2696.572,0.42089
2671,0.4352
2650.551,0.45039
2633.51,0.4637
2609.64,0.4797
2578.96,0.49551
2548.28,0.51112
2512.49,0.52875
2486.921,0.54582
2476.69,0.5599
2456.24,0.57953
2440.9,0.59645
2425.56,0.61237
2415.33,0.62741
2398.29,0.6442
2379.54,0.6546
2364.2,0.66965
2353.97,0.68354
2333.52,0.70104
2313.06,0.71623
2292.61,0.73272
2272.16,0.74891
2241.48,0.76511
2205.682,0.77261
2164.77,0.77041
2123.867,0.77081
2082.96,0.78251
2057.39,0.79812
2036.94,0.81649
2016.48,0.83472
2010.35,0.82694
2002.68,0.83914
1997.57,0.84785
1989.9,0.85917
1977.13,0.86876
1961.815,0.88269
1949.05,0.8914
1938.84,0.90186
1928.63,0.91144
1915.86,0.92102
1900.55,0.93147
1887.79,0.94019
1877.58,0.94715
1859.73,0.95412
1844.43,0.95935
1829.13,0.96109
1813.84,0.96109
1798.562,0.95528
1785.85,0.9428
1775.68,0.92973
1768.06,0.91754
1765.53,0.90883
1760.46,0.89663
1755.4,0.87834
1750.34,0.86179
1747.84,0.83914
1742.76,0.82694
1742.79,0.81649
1737.71,0.80604
1737.74,0.79384
1732.66,0.78165
1732.69,0.76945
1727.611,0.76074
1727.63,0.75029
1722.56,0.73809
1722.59,0.72416
1717.519,0.71196
1717.54,0.70151
1712.47,0.69105
1712.49,0.6806
1707.41,0.67015
1707.43,0.65969
1702.36,0.64924
1702.38,0.63705
1697.31,0.62659
1697.33,0.6144
1692.27,0.59872
1687.2,0.58478
1687.23,0.57084
1682.16,0.55865
1682.19,0.54297
1677.118,0.53252
1677.15,0.51858
1672.09,0.49767
1672.13,0.48025
1667.06,0.46631
1667.1,0.44889
1662.03,0.4367
1662.06,0.42276
1656.98,0.41056
1657.01,0.39663
1651.946,0.38269
1646.88,0.36875
1644.35,0.3583
1631.63,0.34843
1618.876,0.35394
1608.66,0.3644
1590.82,0.36701
1578.09,0.3583
1562.8,0.35917
1547.48,0.37485
1539.81,0.38269
1534.695,0.39314
1527.02,0.40708
1521.9,0.41927
1519.33,0.42799
1514.2,0.44541
1514.22,0.4367
1509.08,0.45586
1501.39,0.4759
1503.96,0.46457
1496.27,0.48809
1493.7,0.49941
1488.55,0.52206
1488.58,0.50987
1478.33,0.53426
1468.155,0.52729
1468.18,0.51509
1463.1,0.50638
1460.58,0.49419
1452.96,0.48199
1450.43,0.47067
1442.81,0.46109
1440.29,0.44715
1435.225,0.43147
1432.7,0.41927
1425.082,0.40708
1412.367,0.39401
1402.15,0.40359
1397.01,0.42624
1397.03,0.41579
1386.79,0.43844
1376.58,0.44541
1371.43,0.47328
1371.46,0.4576
1366.28,0.49767
1366.31,0.48374
1361.116,0.52903
1361.15,0.51161
1353.41,0.55865
1355.99,0.54123
1345.72,0.57723
1330.43,0.58072
1317.67,0.58914
1307.44,0.60307
1299.78,0.61266
1294.63,0.63705
1294.656,0.62485
1289.48,0.66144
1289.51,0.64924
1284.35,0.6806
1284.37,0.67015
1272.86,0.69062
1263.95,0.68234
1253.78,0.67276
1241.03,0.67886
1238.46,0.68931
1233.34,0.69976
1223.12,0.70964
1210.395,0.70238
1205.32,0.69193
1200.25,0.67712
1197.73,0.66318
1192.66,0.65447
1192.69,0.63879
1187.61,0.63008
1187.646,0.61266
1184.322,0.57723
1182.59,0.59523
1177.55,0.56446
1177.59,0.54645
1172.537,0.52555
1172.59,0.50116
1167.53,0.48374
1167.571,0.46283
1162.51,0.44541
1162.554,0.4245
1157.49,0.40708
1152.43,0.39314
1137.09,0.41231
1142.21,0.40185
1132.04,0.39314
1126.98,0.37572
1127.01,0.3583
1121.95,0.34436
1121.98,0.32694
1116.91,0.31474
1116.94,0.29906
1111.872,0.28687
1109.35,0.27293
1104.29,0.25725
1094.11,0.25028
1083.88,0.26596
1081.32,0.27467
1076.2,0.28513
1071.08,0.29558
1065.96,0.30603
1060.841,0.31649
1055.72,0.32694
1045.5,0.33855
1035.31,0.33913
1030.23,0.33042
1020.05,0.3252
1020.08,0.31126
1014.925,0.33739
1009.69,0.40359
1009.71,0.39488
1009.76,0.36875
1009.78,0.36004
1004.513,0.44192
1004.54,0.42799
1004.56,0.41927
999.351,0.47328
999.387,0.45586
994.174,0.51161
994.2174,0.4907
988.982,0.55691
989.033,0.53252
983.791,0.6022
983.842,0.57781
978.6067,0.64402
978.65,0.62311
973.415,0.68931
973.466,0.66492
968.267,0.7137
968.293,0.70151
960.569,0.73896
963.1487,0.72416
952.897,0.75203
942.67,0.76771
942.688,0.759
937.504,0.80081
937.537,0.78513
929.799,0.82956
932.374,0.81649
927.23,0.83914
922.09,0.86005
922.115,0.84785
914.364,0.89837
916.964,0.87398
908.396,0.90883
896.525,0.89837
896.549,0.88676
886.28,0.92276
886.309,0.90883
881.1253,0.95064
881.162,0.93322
873.433,0.97329
876.0102,0.95935
870.8551,0.98722
860.636,0.99942
845.344,1
835.166,0.99245
830.091,0.982
822.467,0.97154
814.8362,0.96458
807.216,0.95238
799.596,0.94019
791.965,0.93322
781.795,0.92189
769.073,0.91231
756.352,0.90186
743.631,0.89199
730.908,0.88269
720.734,0.87311
710.571,0.8583
700.399,0.84785
692.772,0.83914
685.155,0.8252
680.0858,0.81214
677.568,0.79733
672.5004,0.78339
669.981,0.76945
664.911,0.75639
657.2987,0.74071
645.39,0.74855
641.962,0.76248
631.748,0.77236
615.209,0.75987
606.2622,0.77294
598.57,0.79558
601.1471,0.78165
580.728,0.79675
565.441,0.795
552.67,0.80865
550.102,0.81823
544.983,0.82869
534.768,0.83856
522.003,0.84959
509.238,0.86063
501.572,0.8705
483.751,0.86179
483.772,0.85133
478.701,0.83914
478.726,0.82694
468.557,0.81533
460.925,0.80865
455.807,0.8191
453.231,0.83217
448.0685,0.86353
448.112,0.84262
442.935,0.88095
437.784,0.90708
437.809,0.89489
430.106,0.92276
427.535,0.93322
419.843,0.95586
422.42,0.94193
409.618,0.97067
401.956,0.97851