File: Fig S04/csv/FigS4_processed_Composite75.csv
Wavenumber,Transmission
cm^{-1},a.u.
3998.38,0.9828
3995.48,0.98408
3992.59,0.98353
3989.7,0.98305
3986.8,0.98335
3983.91,0.98469
3981.017,0.98557
3978.12,0.98567
3975.23,0.98553
3972.34,0.98582
3969.44,0.98644
3966.55,0.98482
3963.66,0.98329
3960.76,0.98328
3957.87,0.98382
3954.98,0.98521
3952.09,0.98676
3949.192,0.98512
3946.3,0.98338
3943.41,0.98408
3940.51,0.98381
3937.62,0.98521
3934.73,0.98627
3931.83,0.98644
3928.94,0.98629
3926.05,0.98577
3923.15,0.98727
3920.26,0.98757
3917.367,0.98655
3914.47,0.98796
3911.58,0.98762
3908.69,0.98669
3905.79,0.98808
3902.9,0.98948
3900.01,0.98933
3897.11,0.98923
3894.22,0.98983
3891.33,0.9889
3888.44,0.98986
3885.542,0.99172
3882.65,0.99096
3879.76,0.98962
3876.86,0.98904
3873.97,0.99036
3871.08,0.99219
3868.183,0.99467
3865.29,0.99321
3862.4,0.99137
3859.5,0.99122
3856.61,0.99239
3853.72,0.99464
3850.82,0.99521
3847.93,0.99208
3845.04,0.99172
3842.14,0.99464
3839.25,0.99629
3836.358,0.99491
3833.46,0.9943
3830.57,0.99183
3827.68,0.9917
3824.79,0.99286
3821.89,0.99362
3819,0.99709
3816.11,0.99429
3813.21,0.99463
3810.32,0.99601
3807.43,0.99368
3804.533,0.99559
3801.64,0.99585
3798.75,0.99442
3795.85,0.99399
3792.96,0.9924
3790.07,0.99275
3787.17,0.99328
3784.28,0.99322
3781.39,0.99285
3778.49,0.99357
3775.6,0.9922
3772.708,0.99293
3769.81,0.99495
3766.92,0.99474
3764.03,0.99325
3761.14,0.99533
3758.24,0.99602
3755.35,0.99612
3752.46,0.99774
3749.56,0.99923
3746.67,0.99924
3743.78,0.99274
3740.883,0.98775
3737.99,0.98269
3735.1,0.97484
3732.2,0.96711
3729.31,0.96495
3726.42,0.96473
3723.52,0.9677
3720.63,0.97467
3717.74,0.98429
3714.84,0.98872
3711.95,0.98591
3709.058,0.97776
3706.16,0.97233
3703.27,0.97087
3700.38,0.96978
3697.49,0.97341
3694.59,0.97609
3691.7,0.98046
3688.81,0.98419
3685.91,0.98604
3683.02,0.98694
3680.13,0.99031
3677.233,0.99524
3674.34,0.99793
3671.45,0.994
3668.55,0.98999
3665.66,0.99088
3662.77,0.9888
3659.87,0.98839
3656.98,0.98719
3654.09,0.98633
3651.19,0.9863
3648.3,0.9854
3645.408,0.98162
3642.51,0.97733
3639.62,0.97217
3636.73,0.96599
3633.84,0.96027
3630.94,0.95514
3628.05,0.94974
3625.16,0.9471
3622.26,0.94618
3619.37,0.94892
3616.48,0.95248
3613.583,0.9537
3610.69,0.94776
3607.8,0.93651
3604.9,0.92856
3602.01,0.92485
3599.12,0.9215
3596.22,0.92017
3593.33,0.91976
3590.44,0.91982
3587.54,0.9199
3584.65,0.91647
3581.758,0.91358
3578.86,0.91026
3575.97,0.90703
3573.08,0.90535
3570.19,0.9035
3567.29,0.89918
3564.399,0.89722
3561.51,0.89394
3558.61,0.89016
3555.72,0.88741
3552.83,0.88511
3549.93,0.88128
3547.04,0.87651
3544.15,0.87418
3541.25,0.87156
3538.36,0.86846
3535.47,0.86616
3532.574,0.86177
3529.68,0.85697
3526.79,0.85311
3523.89,0.84958
3521,0.84667
3518.11,0.84237
3515.21,0.83868
3512.32,0.8376
3509.43,0.83407
3506.54,0.83039
3503.64,0.82884
3500.749,0.82572
3497.86,0.82167
3494.96,0.81918
3492.07,0.81566
3489.18,0.81275
3486.28,0.80943
3483.39,0.80504
3480.5,0.80173
3477.6,0.79938
3474.71,0.79578
3471.82,0.79309
3468.924,0.78964
3466.03,0.78793
3463.14,0.78565
3460.24,0.78297
3457.35,0.77964
3454.46,0.77603
3451.56,0.77365
3448.67,0.7712
3445.78,0.76774
3442.89,0.76493
3439.99,0.76289
3437.099,0.76183
3434.21,0.75915
3431.31,0.75617
3428.42,0.75291
3425.53,0.74965
3422.63,0.74861
3419.74,0.74834
3416.85,0.74663
3413.95,0.74371
3411.06,0.74123
3408.17,0.74069
3405.274,0.73928
3402.38,0.73588
3399.49,0.73293
3396.59,0.73141
3393.7,0.72902
3390.81,0.72664
3387.91,0.72367
3385.02,0.72232
3382.13,0.7215
3379.24,0.71976
3376.34,0.71655
3373.449,0.71388
3370.56,0.71459
3367.66,0.71326
3364.77,0.71017
3361.88,0.70928
3358.98,0.70739
3356.09,0.70442
3353.2,0.7044
3350.3,0.70351
3347.41,0.70116
3344.52,0.70012
3341.624,0.69923
3338.73,0.69652
3335.84,0.69446
3332.94,0.69323
3330.05,0.69227
3327.16,0.68969
3324.26,0.68755
3321.37,0.68635
3318.48,0.68548
3315.59,0.68427
3312.69,0.68187
3309.799,0.67999
3306.91,0.67791
3304.01,0.67531
3301.12,0.67222
3298.23,0.66891
3295.33,0.66583
3292.44,0.66394
3289.55,0.6614
3286.65,0.65795
3283.76,0.6547
3280.87,0.65273
3277.974,0.65112
3275.08,0.6491
3272.19,0.64727
3269.29,0.64414
3266.4,0.64154
3263.51,0.64001
3260.615,0.63913
3257.72,0.63788
3254.83,0.63545
3251.94,0.63315
3249.04,0.63213
3246.149,0.63026
3243.26,0.62954
3240.36,0.62897
3237.47,0.62751
3234.58,0.62509
3231.68,0.62265
3228.79,0.62268
3225.9,0.62171
3223,0.61971
3220.11,0.61986
3217.22,0.61975
3214.32,0.61844
3211.43,0.61725
3208.54,0.61726
3205.64,0.6152
3202.75,0.61396
3199.86,0.61349
3196.965,0.6134
3194.07,0.613
3191.18,0.6116
3188.29,0.60999
3185.39,0.61022
3182.5,0.61231
3179.61,0.61192
3176.71,0.61123
3173.82,0.61017
3170.93,0.61209
3168.03,0.61297
3165.14,0.61194
3162.25,0.61206
3159.35,0.61376
3156.46,0.61546
3153.57,0.61593
3150.67,0.61492
3147.78,0.61553
3144.89,0.61687
3141.99,0.6166
3139.1,0.61713
3136.21,0.6178
3133.315,0.61761
3130.42,0.61795
3127.53,0.62035
3124.64,0.62089
3121.74,0.62077
3118.85,0.62117
3115.96,0.61955
3113.06,0.61837
3110.17,0.61997
3107.28,0.62046
3104.38,0.61985
3101.49,0.61857
3098.6,0.61743
3095.7,0.61645
3092.81,0.6159
3089.92,0.61602
3087.02,0.61602
3084.13,0.61566
3081.24,0.61605
3078.34,0.61605
3075.45,0.6158
3072.56,0.61422
3069.665,0.61398
3066.77,0.61401
3063.88,0.61315
3060.99,0.6134
3058.09,0.61437
3055.2,0.61428
3052.31,0.61436
3049.41,0.61446
3046.52,0.61432
3043.63,0.61509
3040.73,0.61454
3037.84,0.61458
3034.95,0.6155
3032.05,0.6177
3029.16,0.61791
3026.27,0.61813
3023.37,0.61832
3020.48,0.61802
3017.59,0.6179
3014.69,0.61997
3011.8,0.62191
3008.91,0.62148
3006.015,0.62235
3003.12,0.62251
3000.23,0.62398
2997.34,0.62419
2994.44,0.62424
2991.55,0.62425
2988.66,0.6232
2985.76,0.62388
2982.87,0.62526
2979.98,0.62598
2977.08,0.62681
2974.19,0.62747
2971.3,0.62628
2968.4,0.62781
2965.51,0.62787
2962.62,0.62855
2959.72,0.62883
2956.831,0.62895
2953.94,0.6265
2951.04,0.62488
2948.15,0.62354
2945.26,0.62267
2942.365,0.622
2939.47,0.62189
2936.58,0.62291
2933.69,0.62287
2930.79,0.62151
2927.9,0.62373
2925.006,0.62246
2922.11,0.62263
2919.22,0.62196
2916.33,0.62247
2913.43,0.62424
2910.54,0.62241
2907.65,0.6212
2904.75,0.62244
2901.86,0.62067
2898.97,0.62102
2896.07,0.62
2893.181,0.61744
2890.29,0.61764
2887.39,0.61706
2884.5,0.61474
2881.61,0.61458
2878.72,0.61429
2875.82,0.61564
2872.93,0.61493
2870.04,0.61669
2867.14,0.61654
2864.25,0.61761
2861.356,0.62041
2858.46,0.62022
2855.57,0.62061
2852.68,0.62506
2849.78,0.62559
2846.89,0.62647
2844,0.627
2841.1,0.6279
2838.21,0.63113
2835.32,0.63426
2832.42,0.63474
2829.531,0.63615
2826.64,0.63633
2823.74,0.63768
2820.85,0.63994
2817.96,0.64175
2815.07,0.64385
2812.17,0.64505
2809.28,0.64556
2806.39,0.64782
2803.49,0.65026
2800.6,0.65114
2797.706,0.65124
2794.81,0.65419
2791.92,0.65674
2789.03,0.65671
2786.13,0.65811
2783.24,0.65889
2780.35,0.66085
2777.45,0.66268
2774.56,0.6642
2771.67,0.66493
2768.77,0.66563
2765.881,0.66764
2762.99,0.66899
2760.09,0.6707
2757.2,0.67094
2754.31,0.67161
2751.42,0.67419
2748.52,0.67582
2745.63,0.67625
2742.74,0.67713
2739.84,0.67904
2736.95,0.68082
2734.056,0.68203
2731.16,0.68204
2728.27,0.68326
2725.38,0.68604
2722.48,0.68695
2719.59,0.68739
2716.7,0.68861
2713.8,0.6902
2710.91,0.69103
2708.02,0.69313
2705.12,0.69403
2702.231,0.69522
2699.34,0.69573
2696.44,0.69734
2693.55,0.69943
2690.66,0.69822
2687.77,0.70158
2684.87,0.70187
2681.98,0.70291
2679.09,0.70387
2676.19,0.70689
2673.3,0.70821
2670.406,0.70768
2667.51,0.70918
2664.62,0.71003
2661.73,0.70926
2658.83,0.70876
2655.94,0.70975
2653.05,0.70979
2650.15,0.71091
2647.26,0.71258
2644.37,0.71188
2641.47,0.71414
2638.581,0.71492
2635.69,0.71679
2632.79,0.71723
2629.9,0.71794
2627.01,0.71888
2624.12,0.72023
2621.222,0.72067
2618.33,0.72091
2615.44,0.7211
2612.54,0.72413
2609.65,0.72499
2606.76,0.7254
2603.86,0.72794
2600.97,0.72788
2598.08,0.72783
2595.18,0.73049
2592.29,0.73074
2589.397,0.72964
2586.5,0.73099
2583.61,0.73055
2580.72,0.73148
2577.82,0.73457
2574.93,0.73436
2572.04,0.73522
2569.14,0.7362
2566.25,0.73814
2563.36,0.7391
2560.47,0.74089
2557.572,0.7417
2554.68,0.74166
2551.79,0.74237
2548.89,0.74211
2546,0.74293
2543.11,0.74545
2540.21,0.74672
2537.32,0.74506
2534.43,0.74576
2531.53,0.74727
2528.64,0.74833
2525.747,0.75024
2522.85,0.75032
2519.96,0.74931
2517.07,0.75055
2514.17,0.75105
2511.28,0.75169
2508.39,0.75025
2505.49,0.75191
2502.6,0.75509
2499.71,0.75367
2496.82,0.75724
2493.922,0.75607
2491.03,0.75883
2488.14,0.75693
2485.24,0.75896
2482.35,0.75861
2479.46,0.76056
2476.56,0.75988
2473.67,0.76036
2470.78,0.76232
2467.88,0.76171
2464.99,0.76343
2462.097,0.76528
2459.2,0.76407
2456.31,0.76272
2453.42,0.76446
2450.52,0.76366
2447.63,0.76381
2444.74,0.76928
2441.84,0.77049
2438.95,0.768
2436.06,0.76917
2433.17,0.77097
2430.272,0.77285
2427.38,0.77418
2424.49,0.77273
2421.59,0.7747
2418.7,0.77566
2415.81,0.77519
2412.91,0.77739
2410.02,0.77709
2407.13,0.7798
2404.23,0.78214
2401.34,0.7815
2398.447,0.78198
2395.55,0.78265
2392.66,0.78414
2389.77,0.78384
2386.87,0.78091
2383.98,0.77686
2381.09,0.7757
2378.19,0.78341
2375.3,0.79734
2372.41,0.80066
2369.52,0.78944
2366.622,0.77442
2363.73,0.76056
2360.84,0.74995
2357.94,0.76038
2355.05,0.77657
2352.16,0.76531
2349.26,0.75211
2346.37,0.77273
2343.48,0.77457
2340.58,0.77099
2337.69,0.76916
2334.797,0.7756
2331.9,0.7774
2329.01,0.77631
2326.12,0.7703
2323.22,0.76611
2320.33,0.78055
2317.438,0.78926
2314.54,0.78525
2311.65,0.77676
2308.76,0.77487
2305.87,0.77888
2302.97,0.78213
2300.08,0.78216
2297.19,0.78334
2294.29,0.78621
2291.4,0.78579
2288.51,0.78639
2285.613,0.78717
2282.72,0.78866
2279.83,0.79036
2276.93,0.79274
2274.04,0.79254
2271.15,0.79421
2268.25,0.79565
2265.36,0.79681
2262.47,0.79698
2259.57,0.79884
2256.68,0.80179
2253.788,0.8026
2250.89,0.80003
2248,0.79899
2245.11,0.80181
2242.22,0.80176
2239.32,0.80396
2236.43,0.80435
2233.54,0.80466
2230.64,0.80456
2227.75,0.80515
2224.86,0.80733
2221.963,0.80934
2219.07,0.80489
2216.18,0.80896
2213.28,0.81092
2210.39,0.80948
2207.5,0.81493
2204.6,0.81268
2201.71,0.80744
2198.82,0.80749
2195.92,0.80589
2193.03,0.80187
2190.138,0.81023
2187.24,0.80477
2184.35,0.80559
2181.46,0.81484
2178.57,0.81105
2175.67,0.81048
2172.78,0.8184
2169.89,0.81072
2166.99,0.80479
2164.1,0.80367
2161.21,0.80007
2158.313,0.83083
2155.42,0.83973
2152.53,0.83661
2149.63,0.8307
2146.74,0.83286
2143.85,0.82898
2140.95,0.83237
2138.06,0.83055
2135.17,0.83797
2132.27,0.84523
2129.38,0.83795
2126.488,0.83547
2123.59,0.83397
2120.7,0.83326
2117.81,0.83292
2114.92,0.82709
2112.02,0.82683
2109.13,0.82989
2106.24,0.82699
2103.34,0.82677
2100.45,0.82849
2097.56,0.8277
2094.663,0.83011
2091.77,0.83262
2088.88,0.83155
2085.98,0.82942
2083.09,0.82738
2080.2,0.82646
2077.3,0.82748
2074.41,0.82917
2071.52,0.83066
2068.62,0.83178
2065.73,0.83338
2062.838,0.83515
2059.94,0.83175
2057.05,0.83256
2054.16,0.83493
2051.27,0.8282
2048.37,0.82657
2045.48,0.83021
2042.59,0.82944
2039.69,0.83046
2036.8,0.83124
2033.91,0.83279
2031.013,0.83612
2028.12,0.84117
2025.23,0.84768
2022.33,0.8396
2019.44,0.83626
2016.55,0.84488
2013.654,0.84636
2010.76,0.84836
2007.87,0.85437
2004.97,0.85626
2002.08,0.85204
1999.19,0.84867
1996.29,0.84695
1993.4,0.84831
1990.51,0.84955
1987.62,0.8487
1984.72,0.84608
1981.829,0.84248
1978.94,0.84021
1976.04,0.85312
1973.15,0.86469
1970.26,0.86107
1967.36,0.85596
1964.47,0.8593
1961.58,0.86202
1958.68,0.86786
1955.79,0.86944
1952.9,0.8681
1950.004,0.86897
1947.11,0.8691
1944.22,0.86952
1941.32,0.86911
1938.43,0.8724
1935.54,0.87436
1932.64,0.87404
1929.75,0.8726
1926.86,0.87259
1923.97,0.87387
1921.07,0.87403
1918.179,0.87432
1915.29,0.87551
1912.39,0.87617
1909.5,0.87644
1906.61,0.87724
1903.71,0.87966
1900.82,0.87949
1897.93,0.88081
1895.03,0.8813
1892.14,0.88128
1889.25,0.8817
1886.354,0.88173
1883.46,0.8831
1880.57,0.88391
1877.67,0.88355
1874.78,0.88375
1871.89,0.88468
1868.99,0.88535
1866.1,0.88769
1863.21,0.88664
1860.32,0.88557
1857.42,0.88682
1854.529,0.88725
1851.64,0.88749
1848.74,0.88756
1845.85,0.88846
1842.96,0.88842
1840.06,0.88973
1837.17,0.8916
1834.28,0.89153
1831.38,0.89273
1828.49,0.89335
1825.6,0.89271
1822.704,0.89252
1819.81,0.89198
1816.92,0.89461
1814.02,0.89583
1811.13,0.89509
1808.24,0.89484
1805.34,0.89488
1802.45,0.8943
1799.56,0.89386
1796.67,0.89467
1793.77,0.89757
1790.879,0.89835
1787.99,0.89683
1785.09,0.89515
1782.2,0.8958
1779.31,0.89624
1776.41,0.89667
1773.52,0.8977
1770.63,0.89757
1767.73,0.89639
1764.84,0.89649
1761.95,0.89589
1759.054,0.89482
1756.16,0.89483
1753.27,0.89495
1750.37,0.89289
1747.48,0.88823
1744.59,0.88272
1741.69,0.87685
1738.8,0.87069
1735.91,0.86685
1733.02,0.86011
1730.12,0.85333
1727.229,0.8481
1724.34,0.84395
1721.44,0.84135
1718.55,0.84243
1715.66,0.8402
1712.76,0.8361
1709.87,0.83557
1706.98,0.83788
1704.08,0.83988
1701.19,0.84428
1698.3,0.84306
1695.404,0.83698
1692.51,0.83155
1689.62,0.82807
1686.72,0.82446
1683.83,0.81833
1680.94,0.80695
1678.045,0.7962
1675.15,0.78613
1672.26,0.77357
1669.37,0.7604
1666.47,0.74627
1663.58,0.73494
1660.69,0.7221
1657.79,0.71156
1654.9,0.70555
1652.01,0.69733
1649.11,0.69094
1646.22,0.68408
1643.33,0.6754
1640.43,0.67128
1637.54,0.67105
1634.65,0.6682
1631.75,0.66396
1628.86,0.66365
1625.97,0.66489
1623.07,0.6661
1620.18,0.66803
1617.29,0.67151
1614.395,0.67229
1611.5,0.67236
1608.61,0.67432
1605.72,0.67726
1602.82,0.67808
1599.93,0.67754
1597.04,0.67904
1594.14,0.68073
1591.25,0.68119
1588.36,0.68167
1585.46,0.68111
1582.57,0.68079
1579.68,0.68057
1576.78,0.67989
1573.89,0.67472
1571,0.67103
1568.1,0.66708
1565.21,0.66363
1562.32,0.66081
1559.42,0.65998
1556.53,0.65466
1553.64,0.64964
1550.745,0.64723
1547.85,0.6458
1544.96,0.64747
1542.07,0.65023
1539.17,0.64764
1536.28,0.64611
1533.39,0.64873
1530.49,0.65091
1527.6,0.65549
1524.71,0.66146
1521.81,0.66939
1518.92,0.67797
1516.03,0.68662
1513.13,0.69634
1510.24,0.70889
1507.35,0.7212
1504.45,0.72946
1501.56,0.73748
1498.67,0.7468
1495.77,0.7524
1492.88,0.75634
1489.99,0.76012
1487.095,0.76035
1484.2,0.75751
1481.31,0.75398
1478.42,0.75076
1475.52,0.74599
1472.63,0.73823
1469.74,0.7277
1466.84,0.71803
1463.95,0.7088
1461.06,0.69968
1458.16,0.69158
1455.27,0.67874
1452.38,0.66517
1449.48,0.65444
1446.59,0.64475
1443.7,0.63575
1440.8,0.62776
1437.91,0.62075
1435.02,0.61287
1432.12,0.6057
1429.23,0.59895
1426.34,0.59449
1423.445,0.59268
1420.55,0.59171
1417.66,0.58901
1414.77,0.58766
1411.87,0.59027
1408.98,0.59411
1406.086,0.60014
1403.19,0.60848
1400.3,0.61755
1397.41,0.62674
1394.51,0.63507
1391.62,0.63946
1388.73,0.64324
1385.83,0.64497
1382.94,0.64309
1380.05,0.63879
1377.15,0.63647
1374.261,0.64021
1371.37,0.64763
1368.47,0.65864
1365.58,0.67246
1362.69,0.68689
1359.8,0.699
1356.9,0.70922
1354.01,0.71914
1351.12,0.72749
1348.22,0.73434
1345.33,0.73997
1342.436,0.74384
1339.54,0.74552
1336.65,0.74583
1333.76,0.74629
1330.86,0.74565
1327.97,0.74369
1325.08,0.74157
1322.18,0.73979
1319.29,0.73999
1316.4,0.74055
1313.5,0.74048
1310.611,0.74125
1307.72,0.74259
1304.82,0.74486
1301.93,0.74779
1299.04,0.75044
1296.15,0.75346
1293.25,0.75624
1290.36,0.75807
1287.47,0.75929
1284.57,0.76043
1281.68,0.76116
1278.786,0.76185
1275.89,0.7627
1273,0.76315
1270.11,0.76196
1267.21,0.76001
1264.32,0.75894
1261.43,0.75799
1258.53,0.75705
1255.64,0.75591
1252.75,0.75532
1249.85,0.75574
1246.961,0.75641
1244.07,0.75821
1241.17,0.76093
1238.28,0.76392
1235.39,0.76732
1232.5,0.77062
1229.6,0.77389
1226.71,0.77686
1223.82,0.77874
1220.92,0.78073
1218.03,0.78362
1215.136,0.78457
1212.24,0.78427
1209.35,0.78287
1206.46,0.78128
1203.56,0.77811
1200.67,0.77349
1197.78,0.76925
1194.88,0.76626
1191.99,0.76152
1189.1,0.75636
1186.2,0.74873
1183.311,0.74067
1180.42,0.73295
1177.52,0.72356
1174.63,0.71059
1171.74,0.69721
1168.85,0.6843
1165.95,0.66911
1163.06,0.65359
1160.17,0.63959
1157.27,0.62822
1154.38,0.61568
1151.486,0.60643
1148.59,0.59972
1145.7,0.59405
1142.81,0.59046
1139.91,0.58566
1137.02,0.57609
1134.13,0.56566
1131.23,0.55264
1128.34,0.54211
1125.45,0.52812
1122.55,0.51502
1119.661,0.49882
1116.77,0.48172
1113.87,0.46585
1110.98,0.4496
1108.09,0.434
1105.2,0.41752
1102.302,0.40041
1099.41,0.38148
1096.52,0.36216
1093.62,0.34293
1090.73,0.32632
1087.836,0.30876
1084.94,0.2892
1082.05,0.27222
1079.16,0.25697
1076.26,0.24186
1073.37,0.22679
1070.477,0.21101
1067.58,0.19705
1064.69,0.18376
1061.8,0.17056
1058.9,0.16064
1056.01,0.15058
1053.12,0.14205
1050.22,0.13281
1047.33,0.12333
1044.44,0.11342
1041.55,0.10365
1038.652,0.093557
1035.76,0.082799
1032.87,0.073193
1029.97,0.064466
1027.08,0.058296
1024.19,0.050291
1021.29,0.044077
1018.4,0.040423
1015.51,0.033818
1012.61,0.029986
1009.72,0.025887
1006.827,0.022011
1003.93,0.017171
1001.04,0.014175
998.147,0.009908
995.254,0.0084643
992.361,0.0059972
989.468,0.0026995
986.575,0.001943
983.682,0.00092455
980.788,0
977.895,0.0010877
975.002,0.00057846
972.109,0.0040443
969.216,0.0070701
966.322,0.010719
963.429,0.014476
960.536,0.016899
957.6429,0.020617
954.75,0.028013
951.857,0.033185
948.963,0.039172
946.07,0.0442
943.177,0.047765
940.284,0.055112
937.391,0.06321
934.497,0.068792
931.604,0.076258
928.711,0.081929
925.818,0.086819
922.925,0.093518
920.032,0.097755
917.138,0.10414
914.245,0.10933
911.352,0.11227
908.459,0.11589
905.566,0.11747
902.672,0.12138
899.779,0.12321
896.8861,0.12559
893.993,0.12323
891.1,0.12868
888.207,0.13243
885.313,0.13673
882.4202,0.14215
879.527,0.14657
876.634,0.15307
873.741,0.16259
870.847,0.16956
867.954,0.17746
865.061,0.18528
862.168,0.19298
859.275,0.1996
856.382,0.20555
853.488,0.21613
850.5952,0.22515
847.702,0.23098
844.809,0.23944
841.916,0.24977
839.022,0.25452
836.1293,0.26042
833.236,0.26806
830.343,0.27298
827.45,0.27883
824.557,0.2857
821.6634,0.28524
818.77,0.29054
815.877,0.29913
812.984,0.30129
810.091,0.30498
807.197,0.30618
804.304,0.31233
801.411,0.31359
798.518,0.31921
795.625,0.32119
792.732,0.32593
789.8384,0.32552
786.945,0.32892
784.052,0.3305
781.159,0.33149
778.266,0.33936
775.3725,0.34194
772.479,0.34577
769.586,0.3469
766.693,0.34559
763.8,0.34708
760.9066,0.3505
758.013,0.34863
755.12,0.35387
752.227,0.35337
749.334,0.35664
746.441,0.35502
743.548,0.3586
740.654,0.35343
737.761,0.35337
734.868,0.3563
731.975,0.36313
729.0816,0.3565
726.188,0.35881
723.295,0.3614
720.402,0.36274
717.509,0.36208
714.6157,0.36277
711.723,0.35969
708.829,0.35708
705.936,0.36049
703.043,0.36093
700.1498,0.35892
697.257,0.36
694.363,0.36455
691.47,0.36502
688.577,0.36275
685.684,0.36239
682.791,0.36498
679.898,0.36887
677.004,0.36869
674.111,0.3609
671.218,0.3787
668.3248,0.46011
665.432,0.39476
662.538,0.34469
659.645,0.34127
656.752,0.34205
653.8589,0.3341
650.966,0.32584
648.073,0.33264
645.179,0.34407
642.286,0.33664
639.393,0.32204
636.5,0.32305
633.607,0.30751
630.713,0.29659
627.82,0.32378
624.927,0.33248
622.034,0.24891
619.141,0.29758
616.248,0.26164
613.354,0.28982
610.461,0.27333
607.568,0.29299
604.675,0.28288
601.782,0.28646
599.853,0.27552